Folder: o2_h2_reactor/experimental_data/characterization_data/XRD

Note: experimental_data/characterization_data/README.md
Contains data from photocatalyst characterization.

`SEM`contains original scanning electron microscope images (different magnifications) of the photocatalyst in the form of .tiff files and figure in the form of .png file.

`XRD`contains original data from X-ray diffraction analysis of the photocatalyst and diffractogram of the sample in the form of .png file.

File: EA_400_19112025.xy
5,0022	59,0000
5,3256	49,0000
5,6490	38,0000
5,9725	23,0000
6,2959	15,0000
6,6193	13,0000
6,9427	13,0000
7,2661	8,0000
7,5895	12,0000
7,9129	7,0000
8,2364	11,0000
8,5598	6,0000
8,8832	7,0000
9,2066	8,0000
9,5300	7,0000
9,8534	17,0000
10,1768	13,0000
10,5003	12,0000
10,8237	8,0000
11,1471	1,0000
11,4705	6,0000
11,7939	6,0000
12,1173	9,0000
12,4408	7,0000
12,7642	7,0000
13,0876	10,0000
13,4110	7,0000
13,7344	11,0000
14,0578	12,0000
14,3812	10,0000
14,7047	10,0000
15,0281	4,0000
15,3515	2,0000
15,6749	2,0000
15,9983	10,0000
16,3217	8,0000
16,6451	4,0000
16,9686	11,0000
17,2920	6,0000
17,6154	6,0000
17,9388	8,0000
18,2622	8,0000
18,5856	5,0000
18,9090	5,0000
19,2325	9,0000
19,5559	10,0000
19,8793	9,0000
20,2027	7,0000
20,5261	9,0000
20,8495	3,0000
21,1729	4,0000
21,4964	13,0000
21,8198	5,0000
22,1432	2,0000
22,4666	5,0000
22,7900	9,0000
23,1134	9,0000
23,4368	3,0000
23,7603	6,0000
24,0837	4,0000
24,4071	3,0000
24,7305	5,0000
25,0539	4,0000
25,3773	5,0000
25,7007	2,0000
26,0242	4,0000
26,3476	6,0000
26,6710	7,0000
26,9944	8,0000
27,3178	1,0000
27,6412	2,0000
27,9646	5,0000
28,2881	0,0000
28,6115	0,0000
28,9349	1,0000
29,2583	7,0000
29,5817	1,0000
29,9051	0,0000
30,2285	0,0000
30,5520	0,0000
30,8754	3,0000
31,1988	3,0000
31,5222	21,0000
31,8456	17,0000
32,1690	35,0000
32,4924	78,0000
32,8159	13,0000
33,1393	17,0000
33,4627	20,0000
33,7861	18,0000
34,1095	14,0000
34,4329	13,0000
34,7563	12,0000
35,0798	19,0000
35,4032	11,0000
35,7266	8,0000
36,0500	6,0000
36,3734	8,0000
36,6968	11,0000
37,0202	5,0000
37,3437	6,0000
37,6671	11,0000
37,9905	4,0000
38,3139	2,0000
38,6373	5,0000
38,9607	7,0000
39,2841	5,0000
39,6076	7,0000
39,9310	91,0000
40,2544	6,0000
40,5778	5,0000
40,9012	4,0000
41,2246	2,0000
41,5480	1,0000
41,8715	5,0000
42,1949	0,0000
42,5183	7,0000
42,8417	2,0000
43,1651	1,0000
43,4885	3,0000
43,8119	1,0000
44,1354	5,0000
44,4588	5,0000
44,7822	4,0000
45,1056	9,0000
45,4290	9,0000
45,7524	8,0000
46,0758	7,0000
46,3993	111,0000
46,7227	9,0000
47,0461	9,0000
47,3695	7,0000
47,6929	11,0000
48,0163	9,0000
48,3397	5,0000
48,6632	10,0000
48,9866	5,0000
49,3100	7,0000
49,6334	2,0000
49,9568	7,0000
50,2802	5,0000
50,6036	4,0000
50,9271	5,0000
51,2505	9,0000
51,5739	2,0000
51,8973	3,0000
52,2207	2,0000
52,5441	3,0000
52,8675	2,0000
53,1910	4,0000
53,5144	3,0000
53,8378	2,0000
54,1612	3,0000
54,4846	0,0000
54,8080	1,0000
55,1314	2,0000
55,4549	0,0000
55,7783	2,0000
56,1017	4,0000
56,4251	4,0000
56,7485	6,0000
57,0719	4,0000
57,3953	3,0000
57,7188	102,0000
58,0422	14,0000
58,3656	1,0000
58,6890	2,0000
59,0124	5,0000
59,3358	0,0000
59,6592	3,0000
59,9827	5,0000
60,3061	3,0000
60,6295	0,0000
60,9529	6,0000
61,2763	1,0000
61,5997	2,0000
61,9231	2,0000
62,2466	4,0000
62,5700	3,0000
62,8934	3,0000
63,2168	2,0000
63,5402	6,0000
63,8636	1,0000
64,1870	3,0000
64,5105	0,0000
64,8339	1,0000
65,1573	5,0000
65,4807	5,0000
65,8041	1,0000
66,1275	2,0000
66,4509	5,0000
66,7744	2,0000
67,0978	2,0000
67,4212	3,0000
67,7446	44,0000
68,0680	5,0000
68,3914	5,0000
68,7148	2,0000
69,0383	2,0000
69,3617	1,0000
69,6851	3,0000
70,0085	2,0000
70,3319	5,0000
70,6553	5,0000
70,9787	4,0000
71,3022	1,0000
71,6256	2,0000
71,9490	2,0000
72,2724	4,0000
72,5958	5,0000
72,9192	2,0000
73,2426	1,0000
73,5661	2,0000
73,8895	0,0000
74,2129	3,0000
74,5363	2,0000
74,8597	0,0000
75,1831	2,0000
75,5065	2,0000
75,8300	4,0000
76,1534	2,0000
76,4768	2,0000
76,8002	5,0000
77,1236	38,0000
77,4470	7,0000
77,7704	1,0000
78,0939	2,0000
78,4173	4,0000
78,7407	1,0000
79,0641	2,0000
79,3875	3,0000
79,7109	1,0000
80,0343	1,0000
80,3578	5,0000
80,6812	0,0000
81,0046	1,0000
81,3280	1,0000
81,6514	13,0000
81,9748	5,0000
82,2982	2,0000
82,6217	4,0000
82,9451	2,0000
83,2685	2,0000
83,5919	5,0000
83,9153	2,0000
84,2387	2,0000
84,5621	1,0000
84,8856	1,0000
85,2090	0,0000
85,5324	3,0000
85,8558	3,0000
86,1792	20,0000
86,5026	5,0000
86,8260	1,0000
87,1495	1,0000
87,4729	1,0000
87,7963	2,0000
88,1197	0,0000
88,4431	0,0000
88,7665	1,0000
89,0899	1,0000
89,4134	2,0000
89,7368	3,0000
90,0602	1,0000
90,3836	1,0000
90,7070	1,0000
91,0304	3,0000
91,3538	1,0000
91,6773	1,0000
92,0007	1,0000
92,3241	4,0000
92,6475	2,0000
92,9709	1,0000
93,2943	2,0000
93,6177	1,0000
93,9412	1,0000
94,2646	1,0000
94,5880	0,0000
94,9114	5,0000
95,2348	7,0000
95,5582	7,0000
95,8816	1,0000
96,2051	3,0000
96,5285	0,0000
96,8519	0,0000
97,1753	2,0000
97,4987	2,0000
97,8221	0,0000
98,1455	1,0000
98,4690	2,0000
98,7924	1,0000
99,1158	1,0000
99,4392	1,0000
99,7626	0,0000
100,0052	2,0000